# mpu9150 IMU data started at: 14:21:50 2013-05-13
# mpu9150 IMU raw data
# timestamp,ax,ay,az,gx,gy,gz,C
1368480110.250731,65410,65497,4001,30,65524,65487,23.14
1368480110.252846,65434,65475,4079,32,65477,65519,23.09
1368480110.254997,65484,65492,3998,37,65484,65504,23.05
1368480110.257117,65494,65496,3838,18,65513,65497,23.09
1368480110.259290,65465,65487,3886,17,65532,65496,23.14
1368480110.261435,65486,65509,4019,32,36,65495,23.19
1368480110.263567,65469,65504,4093,21,52,65519,23.05
1368480110.265633,65442,65491,4164,22,17,65488,23.09
1368480110.267858,65433,65461,4229,24,65498,65508,23.14
1368480110.269972,65469,65466,4166,33,65512,65489,23.09
1368480110.272079,65487,65485,4074,30,56,65495,23.24
1368480110.274207,65509,65503,4012,12,83,65495,23.19
1368480110.276382,65445,65489,3989,20,84,65498,23.14
1368480110.278466,65438,65500,4038,29,63,65500,23.09
1368480110.280622,65420,65465,3978,16,29,65490,23.14
1368480110.282975,65455,65495,3984,23,65529,65495,23.09
1368480110.284922,65475,65487,3971,29,65509,65498,23.14
1368480110.286991,65446,65508,3937,28,65488,65497,23.09
1368480110.289115,65490,65485,3973,30,65521,65487,23.05
1368480110.291250,65493,65500,3958,28,28,65506,23.09
1368480110.293426,65460,65475,4032,19,11,65489,23.05
1368480110.295510,65447,65482,4093,29,24,65519,23.19
1368480110.297639,65469,65497,4107,28,25,65495,23.14
1368480110.299818,65475,65452,4084,28,13,65515,23.19
1368480110.301908,65469,65475,4092,14,37,65503,23.14
1368480110.304016,65456,65490,4044,24,42,65506,23.19
1368480110.306141,65458,65507,4062,31,34,65498,23.14
1368480110.308271,65459,65484,4053,21,71,65500,23.19
1368480110.310469,65439,65480,4064,33,37,65502,23.14
1368480110.312562,65442,65500,4021,26,2,65505,23.19
1368480110.314705,65460,65509,3998,22,65517,65517,23.14
1368480110.316794,65456,65502,4000,23,65518,65479,23.09
1368480110.318927,65470,65472,3980,28,65521,65514,23.14
1368480110.321092,65454,65493,4025,31,65531,65497,23.19
1368480110.323163,65460,65468,4036,28,9,65512,23.05
1368480110.325335,65450,65479,4029,32,51,65499,23.19
1368480110.327490,65470,65460,4065,18,26,65503,23.14
1368480110.329576,65447,65453,4093,17,23,65492,23.28
1368480110.331714,65449,65486,4066,24,41,65502,23.24
1368480110.333877,65450,65479,4044,17,54,65502,23.19
1368480110.335948,65446,65479,4066,28,33,65493,23.14
1368480110.338100,65449,65474,4047,14,45,65514,23.09
1368480110.340209,65468,65504,4036,23,16,65493,23.14
1368480110.342349,65463,65499,4051,27,0,65504,23.09
1368480110.344512,65458,65478,4030,15,65531,65505,22.95
1368480110.346613,65461,65485,4029,26,11,65495,23.19
1368480110.348744,65464,65470,4026,26,65535,65499,23.14
1368480110.350914,65469,65466,3995,22,7,65503,23.09
1368480110.352993,65464,65479,3975,12,17,65496,23.14
1368480110.355116,65480,65493,3981,24,39,65495,23.09
1368480110.357248,65464,65459,4008,35,39,65499,23.14
1368480110.359377,65474,65494,4065,17,21,65488,23.19
1368480110.361548,65445,65499,4067,28,35,65517,23.05
1368480110.363666,65455,65479,4023,28,30,65488,23.19
1368480110.365819,65446,65491,4053,16,24,65518,23.14
1368480110.367874,65444,65473,4031,6,42,65494,23.19
1368480110.370013,65450,65472,4063,31,42,65500,23.14
1368480110.372174,65460,65479,4065,14,30,65501,23.19
1368480110.374293,65436,65483,4048,35,65533,65502,23.05
1368480110.376409,65448,65496,4037,33,11,65503,23.09
1368480110.378578,65462,65489,4004,28,2,65488,23.14
1368480110.380665,65463,65483,3978,21,20,65512,23.09
1368480110.382840,65485,65481,3968,23,18,65489,23.14
1368480110.384913,65470,65478,4025,20,25,65514,23.09
1368480110.387078,65461,65495,4004,28,26,65497,23.14
1368480110.389180,65455,65482,3997,27,36,65496,23.19
1368480110.391304,65452,65502,4036,25,33,65484,23.14
1368480110.393423,65458,65493,4026,32,22,65494,23.19
1368480110.395654,65489,65468,4003,23,20,65513,23.14
1368480110.397778,65462,65476,4026,26,26,65506,23.19
1368480110.399880,65437,65475,3989,19,29,65510,23.14
1368480110.402088,65466,65476,4052,35,27,65486,23.09
1368480110.404098,65452,65484,4026,29,13,65506,23.14
1368480110.406243,65476,65495,4014,24,10,65490,23.09
1368480110.408331,65442,65472,4046,27,15,65508,23.14
1368480110.410460,65446,65493,4050,26,15,65487,23.19
1368480110.412652,65438,65495,4046,27,26,65496,23.14
1368480110.414720,65440,65507,4036,32,11,65499,23.09
1368480110.416855,65464,65495,4044,21,26,65484,23.14
1368480110.419008,65463,65500,4026,9,35,65503,23.09
1368480110.421111,65469,65499,4038,36,16,65491,23.05
1368480110.423231,65445,65495,4032,28,13,65499,23.09
1368480110.425376,65478,65472,3996,17,38,65493,23.14
1368480110.427511,65444,65483,4036,30,30,65506,23.19
1368480110.429667,65475,65466,4040,30,24,65495,23.14
1368480110.431690,65452,65457,4009,22,23,65502,23.09
1368480110.433804,65481,65482,4004,21,8,65506,23.14
1368480110.435946,65479,65476,4030,30,12,65507,23.09
1368480110.438076,65460,65475,4037,26,13,65498,23.14
1368480110.440189,65463,65495,4028,26,8,65493,23.19
1368480110.442327,65466,65504,4013,27,28,65496,23.05
1368480110.444451,65463,65464,4044,29,23,65475,23.19
1368480110.446620,65471,65512,4033,22,14,65511,23.05
1368480110.448719,65471,65501,4022,19,21,65495,23.19
1368480110.450825,65449,65476,4048,32,28,65505,23.14
1368480110.452995,65466,65470,4019,36,23,65499,23.19
1368480110.455086,65488,65495,4012,36,10,65501,23.14
1368480110.457238,65462,65497,4074,18,17,65487,23.09
1368480110.459519,65480,65507,4003,25,17,65499,23.14
1368480110.461309,65462,65467,4035,19,34,65516,23.09
1368480110.463664,65446,65504,4056,21,13,65485,23.14
1368480110.465768,65488,65468,4026,31,19,65498,23.09
1368480110.467857,65458,65484,4004,38,17,65494,23.14
1368480110.470013,65427,65493,3985,15,28,65501,23.19
1368480110.472126,65485,65484,4010,30,23,65483,23.05
1368480110.474255,65456,65493,4015,27,3,65508,23.19
1368480110.476386,65463,65492,4019,28,18,65493,23.14
1368480110.478501,65456,65498,4042,24,37,65502,23.09
1368480110.480706,65482,65484,4036,17,19,65493,23.24
1368480110.482767,65471,65496,4016,24,30,65504,23.19
1368480110.484902,65477,65504,4039,32,20,65513,23.14
1368480110.487078,65447,65486,4058,25,12,65495,23.09
1368480110.489166,65463,65464,4056,25,29,65502,23.14
1368480110.491286,65456,65490,4011,31,20,65498,23.09
1368480110.493419,65464,65465,4059,36,16,65509,23.14
1368480110.495523,65477,65470,4031,26,31,65490,23.19
1368480110.497743,65466,65511,4054,25,13,65511,23.14
1368480110.499807,65456,65485,4019,13,12,65477,23.19
1368480110.501946,65467,65467,4003,25,11,65494,23.14
1368480110.504059,65469,65460,4001,21,17,65500,23.09
1368480110.506191,65461,65493,4002,21,17,65500,23.14
1368480110.508317,65453,65506,4049,34,21,65501,23.09
1368480110.510444,65453,65486,4040,21,13,65490,23.14
1368480110.512574,65437,65487,4030,31,20,65501,23.09
1368480110.514765,65455,65492,4051,31,8,65491,23.14
1368480110.517039,65455,65500,4013,6,7,65507,23.09
1368480110.519070,65466,65487,4008,31,20,65488,23.05
1368480110.521197,65454,65487,4000,30,19,65512,23.19
1368480110.523305,65471,65475,4001,25,12,65495,23.05
1368480110.525424,65472,65487,4026,27,23,65520,23.19
1368480110.527548,65472,65492,4031,15,19,65498,23.14
1368480110.529668,65460,65465,4022,21,17,65496,23.09
1368480110.531892,65438,65504,3975,16,25,65504,23.05
1368480110.533934,65459,65472,4012,12,18,65499,23.09
1368480110.536101,65438,65472,4045,16,13,65509,23.14
1368480110.538195,65445,65507,4038,34,11,65502,23.19
1368480110.540337,65451,65482,4028,17,19,65522,23.14
1368480110.542455,65469,65482,4005,30,40,65489,23.09
1368480110.544571,65443,65485,4047,23,30,65490,23.14
1368480110.546791,65465,65486,4043,16,20,65499,23.19
1368480110.548888,65454,65458,4010,23,23,65509,23.14
1368480110.550986,65462,65483,4060,18,17,65500,23.09
1368480110.553123,65449,65465,4053,17,14,65507,23.14
1368480110.555221,65447,65484,4038,39,14,65490,23.09
1368480110.557392,65449,65472,4002,26,13,65494,23.05
1368480110.559488,65468,65453,4001,20,33,65504,23.09
1368480110.561610,65436,65489,3991,19,3,65489,23.14
1368480110.563796,65459,65502,4013,21,11,65506,23.19
1368480110.565921,65460,65479,4069,26,17,65502,23.14
1368480110.568034,65463,65462,4019,19,14,65499,23.09
1368480110.570071,65459,65498,4054,34,22,65503,23.05
1368480110.572259,65472,65468,4063,29,24,65492,23.09
1368480110.574404,65461,65476,4038,28,31,65494,23.24
1368480110.576506,65447,65483,4047,17,18,65500,23.19
1368480110.578659,65463,65481,4045,34,26,65512,23.14
1368480110.580854,65470,65487,4021,28,30,65485,23.00
1368480110.583101,65486,65487,4019,19,27,65515,23.14
1368480110.585056,65489,65494,4007,27,22,65487,23.09
1368480110.587173,65459,65497,4012,26,18,65522,23.14
1368480110.589305,65457,65479,4068,40,29,65485,23.09
1368480110.591413,65477,65490,4055,28,6,65516,23.14
1368480110.593544,65455,65493,4038,16,38,65490,23.09
1368480110.595712,65463,65476,4037,19,21,65487,23.14
1368480110.597804,65468,65487,3990,37,22,65494,23.09
1368480110.599984,65486,65503,4011,27,8,65495,23.14
1368480110.602058,65494,65501,4010,11,26,65502,23.09
1368480110.604181,65458,65491,4013,29,14,65497,23.05
1368480110.606326,65468,65486,4046,19,20,65525,23.19
1368480110.608460,65475,65484,4020,27,21,65485,23.14
1368480110.610616,65454,65468,4027,31,32,65517,23.09
1368480110.612895,65469,65486,4054,20,21,65490,23.14
1368480110.614855,65456,65495,4050,19,14,65515,23.19
1368480110.617025,65449,65492,4024,19,22,65489,23.14
1368480110.619092,65445,65477,4014,28,36,65498,23.28
1368480110.621254,65449,65489,4043,25,29,65512,23.14
1368480110.623351,65458,65485,4006,27,39,65498,23.19
1368480110.625479,65462,65485,4013,25,37,65508,23.05
1368480110.627606,65450,65507,4062,19,38,65486,23.09
1368480110.629733,65459,65489,4022,21,33,65513,23.14
1368480110.631886,65457,65472,4022,17,2,65492,23.19
1368480110.634042,65484,65493,4047,14,35,65512,23.14
1368480110.636111,65472,65470,4007,15,21,65490,23.09
1368480110.638252,65478,65487,4049,30,27,65498,23.14
1368480110.640400,65446,65480,4053,26,19,65502,23.19
1368480110.642526,65462,65493,4051,20,16,65499,23.14
1368480110.644665,65451,65505,4017,12,23,65504,23.19
1368480110.646713,65440,65467,4037,34,21,65499,23.14
1368480110.648817,65436,65484,4046,27,22,65516,23.09
1368480110.651025,65448,65476,4005,26,25,65495,23.14
1368480110.653079,65458,65493,4077,16,13,65501,23.09
1368480110.655208,65434,65483,4047,24,14,65500,23.14
1368480110.657334,65472,65467,4052,18,21,65501,23.19
1368480110.659462,65462,65505,4026,27,31,65507,23.14
1368480110.661675,65471,65473,4017,36,27,65508,23.09
1368480110.663914,65450,65454,4052,32,18,65502,23.14
1368480110.665917,65474,65482,4021,20,10,65512,23.09
1368480110.668115,65447,65505,3992,26,16,65504,23.14
1368480110.670126,65455,65487,4040,21,30,65500,23.09
1368480110.672437,65486,65497,4016,22,15,65498,23.14
1368480110.674456,65452,65480,4030,13,27,65496,23.09
1368480110.676729,65448,65483,4005,34,16,65506,23.05
1368480110.678725,65470,65480,3992,34,21,65491,23.09
1368480110.680891,65474,65487,4036,22,21,65508,23.24
1368480110.682974,65441,65470,4047,33,21,65501,23.19
1368480110.685131,65464,65490,4034,21,16,65495,23.14
1368480110.687216,65470,65484,4056,32,5,65503,23.09
1368480110.689342,65476,65464,4019,26,27,65490,23.05
1368480110.691471,65463,65482,4043,27,19,65503,23.19
1368480110.693585,65466,65490,4022,32,20,65498,23.05
1368480110.695823,65435,65482,4040,28,33,65505,23.09
1368480110.698818,65443,65467,4026,24,19,65507,23.05
1368480110.700007,65451,65493,4044,29,16,65499,23.09
1368480110.702157,65436,65495,4008,17,10,65493,23.05
1368480110.704274,65438,65494,4011,22,19,65499,23.09
1368480110.706398,65457,65489,4061,26,20,65509,23.14
1368480110.708535,65441,65501,4041,27,25,65506,23.09
1368480110.710642,65464,65479,4028,22,13,65491,23.24
1368480110.712762,65471,65483,3994,35,30,65498,23.09
1368480110.714905,65468,65472,4036,26,9,65513,23.24
1368480110.717024,65443,65478,4030,30,23,65498,23.09
1368480110.719194,65468,65486,4017,20,20,65496,23.14
1368480110.721276,65481,65478,4014,15,21,65503,23.09
1368480110.723404,65452,65483,4093,16,23,65504,23.14
1368480110.725525,65451,65484,4026,26,3,65489,23.09
1368480110.727690,65434,65485,4058,25,47,65506,23.14
1368480110.729836,65468,65504,4039,25,30,65498,23.09
1368480110.731997,65471,65473,4026,18,20,65498,23.14
1368480110.734080,65487,65491,4002,26,19,65497,23.19
1368480110.736229,65449,65501,4046,24,17,65472,23.14
1368480110.738326,65451,65484,4026,30,21,65517,23.19
1368480110.740436,65446,65470,3992,16,26,65487,23.05
1368480110.742569,65462,65489,4035,31,23,65510,23.19
1368480110.744694,65446,65484,3998,17,10,65469,23.14
1368480110.746879,65468,65471,4066,28,32,65501,23.09
1368480110.748953,65446,65475,4035,18,22,65498,23.14
1368480110.751072,65456,65475,4009,15,24,65500,23.09
1368480110.753281,65466,65478,4022,20,19,65497,23.05
1368480110.755323,65466,65481,4032,28,24,65498,23.09
1368480110.757483,65451,65502,4015,16,27,65496,23.14
1368480110.759586,65467,65481,4014,21,26,65497,23.19
1368480110.761717,65457,65478,4030,24,17,65520,23.14
1368480110.766116,65445,65472,4023,21,19,65480,23.19
1368480110.766414,65450,65497,4026,20,25,65504,23.24
1368480110.768106,65457,65497,4001,28,22,65489,23.19
1368480110.770316,65458,65481,4025,24,65533,65494,23.14
1368480110.772316,65482,65484,4009,10,21,65487,23.00
1368480110.774498,65471,65498,4010,38,17,65502,23.14
1368480110.776623,65459,65479,4022,32,11,65491,23.09
1368480110.778755,65451,65498,4050,33,11,65494,23.14
1368480110.781019,65481,65503,4025,24,11,65520,23.00
1368480110.783028,65459,65508,3996,29,21,65491,23.14
1368480110.785118,65440,65490,4028,28,4,65509,23.09
1368480110.787329,65464,65485,3983,25,21,65491,23.14
1368480110.789391,65470,65457,3996,34,11,65510,23.09
1368480110.791518,65470,65476,4034,19,12,65493,23.14
1368480110.793664,65456,65475,4021,19,13,65510,23.09
1368480110.795949,65463,65475,4048,22,10,65507,23.24
1368480110.797929,65468,65476,4043,26,13,65501,23.19
1368480110.800075,65456,65495,4005,16,32,65509,23.14
1368480110.802174,65439,65489,4036,18,14,65492,23.09
1368480110.804346,65458,65479,4030,25,13,65514,23.14
1368480110.806429,65454,65492,4061,35,20,65496,23.19
1368480110.808562,65462,65484,4043,26,36,65510,23.14
1368480110.810688,65471,65494,3982,16,46,65482,23.19
1368480110.812868,65455,65466,4040,20,15,65521,23.14
1368480110.814945,65449,65487,3996,32,24,65498,23.19
1368480110.817063,65429,65479,4030,29,8,65498,23.14
1368480110.819197,65438,65476,4036,28,25,65501,23.19
1368480110.822246,65441,65476,4039,32,17,65494,23.14
1368480110.823654,65460,65477,4058,28,25,65511,23.09
1368480110.825541,65432,65474,4022,21,19,65490,23.14
1368480110.827648,65471,65509,4049,26,22,65526,23.19
1368480110.829825,65477,65477,4051,25,19,65491,23.14
1368480110.831920,65456,65506,4054,30,13,65510,23.09
1368480110.834053,65481,65499,4016,34,19,65500,23.14
1368480110.836157,65457,65479,4018,28,18,65523,23.19
1368480110.838335,65441,65504,4021,18,12,65493,23.14
1368480110.840418,65467,65473,4031,25,31,65516,23.19
1368480110.842545,65465,65443,4011,26,25,65496,23.14
1368480110.844668,65452,65491,4014,27,37,65524,23.19
1368480110.846782,65475,65507,4049,24,18,65489,23.14
1368480110.849028,65449,65485,4006,44,22,65482,23.09
1368480110.851260,65468,65483,4034,14,35,65511,23.14
1368480110.853291,65467,65485,4026,22,11,65485,23.19
1368480110.855424,65465,65491,4051,25,5,65502,23.14
1368480110.857536,65477,65472,4058,34,24,65487,23.19
1368480110.859680,65451,65469,4028,43,26,65512,23.05
1368480110.861822,65459,65461,4023,21,17,65496,23.09
1368480110.863918,65447,65482,4024,18,24,65504,23.14
1368480110.866075,65454,65495,4053,28,24,65504,23.09
1368480110.868198,65466,65478,4031,31,25,65501,23.05
1368480110.870298,65483,65459,4032,17,9,65505,23.19
1368480110.872419,65433,65482,4034,29,18,65496,23.14
1368480110.874558,65470,65468,4026,22,23,65518,23.19
1368480110.876673,65452,65495,4042,41,26,65494,23.14
1368480110.878855,65450,65493,4019,19,26,65510,23.19
1368480110.880931,65467,65475,4032,25,8,65497,23.14
1368480110.883063,65443,65481,4022,28,17,65507,23.09
1368480110.885166,65455,65470,4043,39,17,65504,23.14
1368480110.887255,65488,65480,4059,26,26,65499,23.09
1368480110.889432,65466,65489,4026,14,17,65496,23.14
1368480110.891509,65427,65492,4048,30,20,65492,23.19
1368480110.893637,65483,65489,4049,35,18,65508,23.14
1368480110.895766,65491,65476,4029,26,35,65495,23.09
1368480110.897902,65452,65514,4043,25,12,65498,23.14
1368480110.900025,65486,65487,3986,24,34,65492,23.09
1368480110.902152,65478,65467,4023,22,20,65519,23.14
1368480110.904279,65457,65495,4030,29,22,65498,23.19
1368480110.906443,65459,65490,4031,14,18,65505,23.14
1368480110.908614,65453,65463,4032,25,25,65497,23.09
1368480110.910813,65460,65491,4013,25,24,65496,23.14
1368480110.912897,65468,65504,4022,28,10,65512,23.09
1368480110.915008,65465,65476,4017,20,18,65493,23.14
1368480110.917115,65456,65478,4042,22,20,65504,23.09
1368480110.919286,65474,65487,4039,26,25,65483,23.14
1368480110.921390,65471,65478,4038,27,8,65510,23.09
1368480110.923567,65448,65468,4037,17,9,65483,23.14
1368480110.925645,65463,65497,4010,32,28,65496,23.09
1368480110.927780,65450,65522,4075,24,32,65493,23.05
1368480110.929905,65473,65526,4065,10,17,65498,23.19
1368480110.932057,65467,65465,4002,22,9,65501,23.05
1368480110.934157,65461,65489,4047,22,28,65486,23.09
1368480110.936290,65468,65484,4043,22,22,65521,23.14
1368480110.940037,65448,65470,3984,32,8,65496,23.19
1368480110.940612,65467,65482,4039,18,22,65507,23.14
1368480110.942672,65437,65495,4026,41,16,65485,23.19
1368480110.944782,65430,65493,4067,27,16,65508,23.14
1368480110.946853,65470,65472,4022,31,10,65487,23.19
1368480110.949002,65452,65471,4021,26,24,65499,23.14
1368480110.951118,65463,65506,4001,24,13,65499,23.19
1368480110.953234,65484,65481,4013,25,23,65507,23.24
1368480110.955389,65434,65501,4020,9,8,65508,23.19
1368480110.957549,65458,65495,4055,28,23,65488,23.05
1368480110.959646,65455,65496,4069,42,23,65498,23.09
1368480110.961761,65444,65494,4029,19,21,65497,23.05
1368480110.963907,65445,65489,4005,24,20,65499,23.09
1368480110.966015,65469,65486,4028,33,17,65488,23.14
1368480110.968293,65478,65507,3988,23,9,65505,23.19
1368480110.970125,65459,65477,4042,31,23,65489,23.14
1368480110.972436,65452,65503,4057,26,14,65496,23.09
1368480110.974528,65458,65481,4029,20,7,65505,23.05
1368480110.976663,65463,65495,4021,35,13,65509,23.09
1368480110.978778,65468,65474,4045,27,37,65509,23.14
1368480110.980933,65454,65487,4010,26,23,65486,23.09
1368480110.983055,65454,65485,4026,24,21,65509,23.24
1368480110.985178,65460,65507,4031,18,18,65491,23.09
1368480110.987315,65462,65476,4005,21,25,65514,23.14
1368480110.989444,65469,65497,4034,24,20,65493,23.19
1368480110.991639,65449,65475,3989,21,42,65498,23.14
1368480110.993779,65472,65488,4027,34,17,65485,23.09
1368480110.995907,65448,65504,4060,32,20,65495,23.14
1368480110.998021,65457,65497,4047,20,11,65509,23.19
1368480111.000167,65452,65465,4039,19,11,65487,23.14
1368480111.002298,65456,65473,4035,28,20,65514,23.09
1368480111.004351,65441,65475,4021,29,13,65488,23.05
1368480111.006497,65448,65488,4015,20,11,65506,23.19
1368480111.008640,65455,65470,4012,10,17,65488,23.14
1368480111.010730,65463,65458,4021,18,27,65507,23.09
1368480111.012841,65470,65487,4056,28,19,65490,23.05
1368480111.014994,65489,65483,4013,26,11,65512,23.09
1368480111.017112,65463,65489,4039,22,25,65486,23.24
1368480111.019240,65479,65487,4020,35,18,65497,23.09
1368480111.021369,65468,65492,4038,18,27,65497,23.24
1368480111.023499,65454,65486,4053,25,15,65497,23.28
1368480111.025673,65484,65501,4027,33,14,65503,23.24
1368480111.027760,65475,65486,4001,12,25,65487,23.19
1368480111.029879,65480,65490,4046,35,20,65500,23.05
1368480111.032044,65461,65481,4015,27,21,65498,23.19
1368480111.034140,65457,65504,4030,29,6,65503,23.14
1368480111.036270,65463,65466,4077,29,37,65487,23.09
1368480111.038396,65438,65489,4032,25,8,65512,23.14
1368480111.040516,65450,65494,4017,19,27,65497,23.19
1368480111.042700,65451,65480,4032,22,23,65515,23.05
1368480111.044791,65453,65489,4055,28,28,65499,23.19
1368480111.046937,65469,65511,4038,38,18,65500,23.14
1368480111.049042,65460,65485,4017,32,14,65506,23.09
1368480111.051173,65452,65482,4026,16,22,65477,23.14
1368480111.053354,65456,65456,4024,21,15,65511,23.28
1368480111.055432,65497,65504,4020,30,19,65491,23.05
1368480111.057545,65463,65484,4035,28,29,65505,23.19
1368480111.059853,65435,65470,4035,23,4,65505,23.14
1368480111.061895,65449,65489,4040,26,17,65502,23.19
1368480111.064044,65446,65488,4029,45,28,65504,23.14
1368480111.066152,65466,65467,3990,24,10,65494,23.19
1368480111.068276,65462,65502,3997,31,17,65516,23.14
1368480111.070411,65463,65468,4026,28,17,65484,23.19
1368480111.072625,65446,65498,4015,26,24,65506,23.14
1368480111.074636,65460,65500,4050,12,12,65494,23.19
1368480111.076835,65457,65493,4024,21,15,65502,23.14
1368480111.078930,65464,65497,4043,23,22,65494,23.19
1368480111.081084,65481,65472,4048,23,27,65506,23.14
1368480111.083175,65476,65474,4013,21,20,65499,23.19
1368480111.085307,65467,65495,4056,24,30,65503,23.05
1368480111.087442,65448,65474,4027,33,33,65500,23.09
1368480111.089556,65457,65458,4005,34,19,65491,23.14
1368480111.091741,65469,65472,4001,26,22,65500,23.09
1368480111.093859,65460,65484,4024,27,14,65496,23.14
1368480111.095968,65473,65505,4061,23,25,65500,23.09
1368480111.098105,65468,65479,4052,24,35,65481,23.14
1368480111.100246,65449,65490,4023,32,9,65506,23.09
1368480111.102338,65467,65477,4061,35,31,65501,23.14
1368480111.104466,65451,65481,4048,18,14,65507,23.09
1368480111.106607,65462,65477,4031,26,23,65489,23.05
1368480111.108723,65447,65472,4030,34,7,65508,23.19
1368480111.110910,65460,65465,4057,26,7,65518,23.05
1368480111.112999,65490,65486,3983,21,21,65503,23.09
1368480111.115109,65472,65474,4060,43,13,65500,23.14
1368480111.117243,65444,65497,3999,7,25,65495,23.09
1368480111.119357,65461,65497,4038,20,17,65511,23.14
1368480111.121511,65479,65480,4040,36,11,65509,23.09
1368480111.123673,65435,65466,4046,23,65533,65497,23.14
1368480111.125713,65446,65497,4013,33,17,65503,23.19
1368480111.127901,65457,65465,4057,15,23,65511,23.14
1368480111.129953,65456,65458,4039,39,65535,65498,23.09
1368480111.132069,65439,65502,4023,23,27,65499,23.14
1368480111.134200,65486,65491,4042,32,24,65510,23.09
1368480111.136328,65467,65478,4048,31,27,65497,23.05
1368480111.138455,65469,65494,4035,28,4,65506,23.09
1368480111.140581,65457,65486,4022,19,21,65492,23.14
1368480111.142718,65473,65481,4038,25,29,65504,23.19
1368480111.144879,65440,65479,4063,24,20,65482,23.05
1368480111.146979,65459,65494,4036,22,30,65519,23.28
1368480111.149096,65470,65474,4049,31,6,65497,23.14
1368480111.151256,65465,65488,4038,12,23,65496,23.19
1368480111.153435,65469,65482,4017,29,33,65491,23.14
1368480111.155585,65490,65458,4052,23,8,65500,23.19
1368480111.157695,65462,65502,4021,25,24,65492,23.14
1368480111.159833,65483,65477,4017,34,23,65495,23.19
1368480111.161994,65473,65482,4008,31,19,65516,23.24
1368480111.164078,65441,65482,3988,9,23,65484,23.19
1368480111.166206,65465,65491,4038,24,18,65516,23.14
1368480111.168334,65456,65468,4008,25,26,65493,23.19
1368480111.170462,65449,65469,4024,23,19,65509,23.24
1368480111.172594,65448,65516,4024,27,6,65497,23.00
1368480111.174720,65459,65500,4025,25,9,65496,23.14
1368480111.176798,65437,65486,4027,18,18,65499,23.09
1368480111.179028,65455,65481,4026,23,20,65502,23.14
1368480111.181097,65451,65496,4009,41,16,65499,23.19
1368480111.183228,65443,65479,4008,17,13,65477,23.14
1368480111.185335,65463,65470,4058,12,20,65509,23.19
1368480111.187423,65437,65487,4024,28,13,65490,23.14
1368480111.189552,65448,65475,4030,22,20,65503,23.19
1368480111.191680,65473,65499,3993,33,22,65482,23.14
1368480111.193802,65484,65488,4045,18,13,65486,23.09
1368480111.195997,65473,65485,3989,32,16,65500,23.14
1368480111.198063,65465,65506,4012,18,11,65507,23.09
1368480111.200192,65450,65508,4055,21,42,65514,23.14
1368480111.202310,65476,65491,4000,35,11,65496,23.19
1368480111.204463,65454,65483,4051,23,17,65496,23.14
1368480111.206579,65479,65500,4008,36,24,65484,23.19
1368480111.208708,65465,65476,4035,28,17,65501,23.14
1368480111.210818,65445,65462,4013,23,12,65496,23.09
1368480111.213253,65467,65500,4059,21,6,65513,23.14
1368480111.215169,65465,65483,4054,29,11,65479,23.09
1368480111.217305,65451,65498,3983,26,43,65500,23.14
1368480111.219428,65461,65495,4014,27,27,65498,23.09
1368480111.221574,65492,65488,4053,23,24,65499,23.05
1368480111.223704,65450,65487,4017,30,15,65498,23.09
1368480111.225817,65458,65447,4035,22,17,65497,23.14
1368480111.227955,65475,65482,4033,20,20,65517,23.09
1368480111.230119,65467,65485,4017,23,16,65492,23.14
1368480111.232204,65467,65500,4030,28,16,65515,23.19
1368480111.234328,65489,65481,4012,22,28,65484,23.14
1368480111.236459,65470,65487,3998,22,22,65493,23.09
1368480111.238587,65484,65505,4013,17,26,65490,23.14
1368480111.240710,65442,65472,4022,19,20,65493,23.19
1368480111.242875,65449,65485,4043,23,31,65489,23.14
1368480111.244996,65487,65490,4039,25,18,65489,23.09
1368480111.247166,65480,65465,4052,25,20,65515,23.14
1368480111.249244,65460,65479,4025,13,19,65484,23.19
1368480111.251603,65459,65496,4041,27,13,65506,23.24
1368480111.253493,65465,65476,4026,21,13,65496,23.09
1368480111.255646,65457,65503,4050,11,31,65505,23.14
1368480111.257747,65473,65480,4048,34,8,65484,23.09
1368480111.259908,65469,65505,4042,27,29,65505,23.24
1368480111.262025,65446,65492,4021,22,23,65490,23.09
1368480111.264176,65465,65463,4046,15,22,65510,23.05
1368480111.266262,65446,65487,4090,29,19,65518,23.09
1368480111.268388,65457,65482,4036,29,24,65502,23.05
1368480111.270510,65449,65470,4036,26,18,65491,23.09
1368480111.272658,65445,65468,4026,28,33,65489,23.14
1368480111.274861,65465,65476,4018,21,10,65517,23.09
1368480111.276904,65456,65488,3996,32,14,65493,23.14
1368480111.279047,65464,65486,4063,25,3,65496,23.19
1368480111.281176,65431,65488,4024,33,10,65485,23.24
1368480111.283244,65484,65497,4027,27,24,65506,23.09
1368480111.285355,65472,65501,4045,22,11,65498,23.14
1368480111.287476,65444,65482,4058,26,23,65506,23.19
1368480111.289604,65480,65486,4055,28,15,65500,23.14
1368480111.291783,65468,65483,4010,29,15,65488,23.19
1368480111.293850,65457,65471,4008,24,32,65501,23.24
1368480111.296004,65465,65499,4047,31,19,65490,23.19
1368480111.298166,65436,65478,4063,19,9,65505,23.14
1368480111.300237,65472,65509,4028,25,22,65492,23.09
1368480111.302377,65476,65491,4037,25,36,65506,23.14
1368480111.304615,65447,65492,3995,14,21,65495,23.09
1368480111.306712,65459,65457,4039,16,21,65498,23.14
1368480111.308882,65462,65499,4015,20,21,65505,23.19
1368480111.310987,65467,65486,3992,35,14,65496,23.14
1368480111.313092,65443,65495,4021,24,33,65509,23.19
1368480111.315301,65467,65489,4022,26,22,65505,23.14
1368480111.317354,65464,65528,4063,36,21,65494,23.09
1368480111.319489,65443,65481,4027,28,31,65487,23.14
1368480111.321609,65458,65494,3991,27,12,65507,23.09
1368480111.323870,65444,65493,3984,26,28,65492,23.14
1368480111.325908,65462,65471,4033,29,35,65511,23.09
1368480111.328002,65473,65487,4016,35,22,65497,23.14
1368480111.330126,65451,65484,3997,16,13,65501,23.09
1368480111.332294,65462,65450,4033,31,17,65512,23.14
1368480111.334379,65446,65481,4017,41,28,65492,23.09
1368480111.336526,65452,65489,4023,14,4,65503,23.24
1368480111.338796,65449,65460,3997,29,24,65486,23.19
1368480111.341428,65466,65507,4066,14,11,65499,23.14
1368480111.342925,65462,65471,4093,14,23,65498,23.09
1368480111.345071,65463,65498,4018,23,12,65511,23.05
1368480111.347153,65464,65504,4033,25,18,65493,23.09
1368480111.349348,65483,65510,4048,28,11,65504,23.14
1368480111.351415,65455,65462,4040,35,25,65500,23.09
1368480111.353542,65474,65495,4042,17,5,65499,23.05
1368480111.355706,65435,65532,4068,27,24,65492,23.09
1368480111.357806,65458,65503,4037,21,9,65496,23.14
1368480111.359916,65451,65515,4078,30,24,65502,23.19
1368480111.362072,65484,65491,4013,25,8,65506,23.14
1368480111.364204,65479,65481,4071,30,17,65518,23.19
1368480111.366383,65451,65483,4048,20,21,65491,23.14
1368480111.368438,65472,65493,4039,24,20,65506,23.09
1368480111.370746,65469,65495,4037,28,12,65493,23.14
1368480111.372769,65465,65496,4044,26,8,65499,23.19
1368480111.374851,65471,65510,4013,24,42,65500,23.14
1368480111.376973,65474,65475,4039,25,29,65495,23.09
1368480111.379037,65452,65465,4039,21,16,65517,23.14
1368480111.381233,65467,65482,4049,18,10,65488,23.09
1368480111.383393,65456,65492,4024,15,11,65523,23.24
1368480111.385478,65465,65505,4036,11,14,65487,23.19
1368480111.387607,65453,65486,4038,27,7,65503,23.05
1368480111.389715,65443,65497,4033,18,22,65504,23.19
1368480111.392936,65446,65479,4031,32,19,65504,23.14
1368480111.394008,65460,65485,4022,11,8,65491,23.09
1368480111.396112,65480,65473,4016,20,27,65495,23.14
1368480111.398246,65475,65487,3990,19,6,65511,23.19
1368480111.400568,65455,65497,4040,22,16,65499,23.14
1368480111.402500,65470,65488,4031,31,20,65500,23.19
1368480111.404657,65461,65467,4055,17,22,65498,23.14
1368480111.406768,65445,65472,3995,21,18,65518,23.09
1368480111.408919,65446,65486,4055,28,21,65478,23.14
1368480111.411030,65450,65486,4020,21,14,65498,23.09
1368480111.413155,65470,65504,4082,28,41,65491,23.14
1368480111.415289,65454,65475,4016,33,31,65520,23.09
1368480111.417461,65478,65449,4014,26,23,65497,23.24
1368480111.419535,65472,65507,4027,27,22,65503,23.09
1368480111.421643,65448,65504,4049,23,27,65494,23.14
1368480111.423854,65455,65502,4015,29,22,65505,23.09
1368480111.425939,65467,65476,4029,31,19,65505,23.05
1368480111.428069,65435,65489,3995,22,31,65475,23.19
1368480111.430334,65463,65487,4039,24,27,65506,23.14
1368480111.432321,65473,65513,4021,13,35,65488,23.09
1368480111.434513,65461,65491,4010,24,15,65516,23.14
1368480111.436575,65467,65475,4061,33,34,65497,23.19
1368480111.438697,65440,65487,4010,24,22,65498,23.14
1368480111.440876,65451,65492,4070,29,24,65505,23.19
1368480111.442969,65457,65458,4047,22,30,65514,23.14
1368480111.445082,65443,65522,4029,26,28,65496,23.09
1368480111.447215,65461,65489,4060,30,14,65503,23.05
1368480111.449343,65456,65497,4069,30,12,65505,23.09
1368480111.451506,65455,65478,4026,29,7,65489,23.14
1368480111.453595,65441,65480,4054,30,20,65508,23.19
1368480111.455810,65456,65467,4046,14,25,65483,23.05
1368480111.457902,65462,65478,4048,32,21,65511,23.19
1368480111.459978,65473,65505,4042,24,39,65483,23.14
1368480111.462136,65481,65476,4020,23,3,65497,23.19
1368480111.464168,65457,65494,4046,20,23,65497,23.14
1368480111.466314,65470,65500,4033,13,13,65496,23.09
1368480111.468472,65439,65518,4023,26,21,65507,23.14
1368480111.470557,65486,65534,4082,11,31,65497,23.09
1368480111.472685,65451,65510,4006,29,21,65517,23.14
1368480111.474807,65484,65488,4009,28,19,65484,23.09
1368480111.476966,65481,65499,4015,27,23,65508,23.24
1368480111.479038,65465,65507,4027,30,34,65493,23.09
1368480111.481189,65447,65479,3965,34,13,65501,23.05
1368480111.483340,65470,65498,4025,21,26,65500,23.09
1368480111.485532,65469,65480,4050,24,31,65509,23.14
1368480111.487590,65450,65507,4010,27,22,65501,23.09
1368480111.489818,65472,65476,4039,33,22,65493,23.14
1368480111.491922,65455,65477,4024,26,23,65499,23.09
1368480111.494082,65449,65462,4054,33,15,65482,23.05
1368480111.496180,65451,65505,4014,26,25,65509,23.09
1368480111.498305,65469,65501,4043,24,11,65486,23.05
1368480111.500522,65449,65510,4012,34,34,65497,23.19
1368480111.502609,65450,65494,4013,29,16,65483,23.14
1368480111.504702,65426,65513,4026,24,17,65520,23.19
1368480111.506965,65482,65494,3978,24,22,65493,23.14
1368480111.508962,65453,65506,4030,24,23,65509,23.19
1368480111.511081,65464,65503,4071,9,37,65490,23.24
1368480111.513199,65466,65469,4040,22,6,65499,23.09
1368480111.515353,65473,65497,4013,28,26,65518,23.14
1368480111.517460,65470,65481,4018,23,23,65497,23.09
1368480111.519840,65465,65475,4023,26,18,65503,23.24
1368480111.521640,65457,65497,4017,22,25,65491,23.09
1368480111.523820,65465,65482,4011,34,13,65504,23.14
1368480111.525925,65462,65503,4034,28,13,65494,23.09
1368480111.528036,65455,65476,4038,28,16,65500,23.05
1368480111.530156,65454,65468,4002,12,28,65490,23.19
1368480111.532293,65419,65495,4027,26,17,65504,23.14
1368480111.534431,65477,65488,4030,23,17,65508,23.09
1368480111.536595,65447,65464,4053,21,25,65496,23.14
1368480111.538677,65488,65507,4036,25,25,65507,23.09
1368480111.540810,65443,65471,4068,27,19,65492,23.14
1368480111.542940,65470,65467,4060,22,11,65514,23.19
1368480111.545133,65460,65475,4026,22,28,65487,23.14
1368480111.547224,65439,65484,4071,29,16,65500,23.09
1368480111.549324,65460,65494,4018,28,16,65492,23.14
1368480111.551450,65467,65493,4025,20,31,65501,23.09
1368480111.553625,65465,65490,3990,20,30,65510,23.14
1368480111.555713,65444,65479,4011,28,27,65489,23.19
1368480111.557809,65467,65490,3986,28,6,65490,23.14
1368480111.559985,65461,65479,4018,25,18,65481,23.19
1368480111.562108,65438,65498,4034,19,29,65497,23.14
1368480111.564225,65476,65486,4044,27,25,65478,23.09
1368480111.566348,65471,65475,3998,27,6,65506,23.14
1368480111.568493,65458,65482,4029,22,20,65499,23.19
1368480111.570657,65470,65508,4055,27,11,65488,23.14
1368480111.572753,65438,65465,4051,22,23,65499,23.19
1368480111.574938,65456,65493,4048,34,33,65501,23.14
1368480111.577083,65463,65486,4020,26,19,65496,23.19
1368480111.579202,65460,65496,4033,16,31,65507,23.14
1368480111.581281,65443,65484,4011,27,16,65491,23.19
1368480111.583458,65456,65473,4034,34,43,65487,23.14
1368480111.585586,65458,65497,4051,13,13,65501,23.09
1368480111.587776,65474,65478,4021,14,20,65478,23.14
1368480111.589840,65461,65517,4021,31,30,65490,23.19
1368480111.591999,65474,65512,4000,19,6,65487,23.14
1368480111.594098,65461,65523,4023,31,15,65507,23.19
1368480111.596234,65454,65492,4043,32,27,65487,23.05
1368480111.598361,65464,65477,4009,27,20,65499,23.09
1368480111.600497,65484,65504,4022,24,13,65501,23.14
1368480111.602605,65462,65484,4037,9,2,65501,23.19
1368480111.604818,65451,65528,4039,16,12,65496,23.05
1368480111.606907,65438,65486,4017,21,14,65497,23.19
1368480111.609012,65486,65460,4036,14,15,65499,23.14
1368480111.611292,65463,65489,4018,25,30,65486,23.09
1368480111.613284,65457,65502,4019,22,7,65514,23.14
1368480111.615406,65486,65470,3984,25,12,65481,23.19
1368480111.617516,65440,65478,4026,12,34,65510,23.14
1368480111.619703,65468,65484,4038,18,24,65502,23.09
1368480111.621872,65468,65478,4004,14,29,65508,23.24
1368480111.623918,65453,65494,3994,26,8,65508,23.09
1368480111.626055,65460,65494,4004,31,18,65505,23.05
1368480111.628159,65471,65502,4042,13,16,65501,23.09
1368480111.630298,65475,65468,4046,26,18,65494,23.14
1368480111.632410,65479,65473,4028,19,36,65516,23.09
1368480111.634678,65459,65495,4023,35,16,65476,23.24
1368480111.636697,65463,65484,4039,31,29,65517,23.09
1368480111.638866,65471,65472,4048,22,11,65501,23.14
1368480111.640856,65466,65478,4033,31,17,65500,23.19
1368480111.643019,65468,65461,4011,26,24,65498,23.14
1368480111.645122,65470,65484,4030,18,16,65501,23.09
1368480111.647250,65473,65477,4032,22,13,65498,23.14
1368480111.649377,65455,65475,4030,28,19,65499,23.09
1368480111.651504,65461,65470,4045,21,22,65502,23.14
1368480111.653721,65467,65500,4049,17,22,65497,23.19
1368480111.655914,65462,65492,4033,32,14,65520,23.14
1368480111.657985,65444,65486,4028,24,18,65498,23.19
1368480111.660099,65464,65479,4009,21,22,65504,23.14
1368480111.662224,65482,65493,4056,23,12,65488,23.09
1368480111.664348,65487,65496,4015,20,7,65497,23.14
1368480111.666471,65460,65488,4037,20,19,65493,23.09
1368480111.668606,65464,65491,4046,10,34,65512,23.14
1368480111.670924,65447,65515,4052,38,21,65510,23.09
1368480111.672940,65457,65476,4055,29,20,65490,23.14
1368480111.675001,65458,65460,4015,28,5,65503,23.09
1368480111.677143,65460,65489,4039,27,24,65493,23.14
1368480111.679245,65473,65484,4018,29,20,65510,23.19
1368480111.681402,65465,65483,4016,35,23,65494,23.14
1368480111.683517,65479,65480,4016,32,15,65507,23.09
1368480111.685647,65457,65483,4016,28,14,65479,23.14
1368480111.687777,65446,65479,4022,21,33,65498,23.09
1368480111.689944,65471,65475,3978,22,25,65510,23.14
1368480111.692027,65472,65482,4028,19,22,65492,23.09
1368480111.694155,65496,65480,4043,27,15,65504,23.14
1368480111.696285,65471,65487,4057,12,12,65501,23.19
1368480111.698419,65479,65482,4044,28,24,65492,23.14
1368480111.700490,65451,65461,3995,28,29,65490,23.09
1368480111.702612,65453,65488,4036,19,28,65516,23.05
1368480111.704731,65456,65489,4037,21,9,65495,23.19
1368480111.706908,65464,65497,4040,31,29,65513,23.05
1368480111.708990,65462,65484,4029,22,22,65495,23.19
1368480111.711117,65464,65518,4035,22,6,65488,23.14
1368480111.713244,65447,65484,4026,21,6,65502,23.19
1368480111.715375,65469,65473,4035,28,19,65499,23.14
1368480111.717502,65458,65489,4027,15,21,65491,23.09
1368480111.719642,65464,65489,3990,33,6,65491,23.24
1368480111.721838,65482,65483,4046,23,9,65503,23.19
1368480111.724000,65451,65496,4009,26,1,65484,23.14
1368480111.726085,65462,65486,4031,32,29,65497,23.09
1368480111.728214,65470,65489,4041,12,21,65500,23.24
1368480111.730486,65439,65483,4058,29,28,65502,23.09
1368480111.732496,65471,65477,4023,11,26,65496,23.14
1368480111.734634,65471,65505,4024,32,10,65500,23.09
1368480111.736734,65442,65507,4041,36,25,65506,23.14
1368480111.738859,65460,65500,4038,27,10,65491,23.09
1368480111.741055,65486,65470,3998,18,26,65500,23.05
1368480111.743117,65472,65461,4006,22,19,65492,23.09
1368480111.745268,65454,65484,4025,24,13,65506,23.24
1368480111.747383,65462,65490,3998,15,16,65493,23.09
1368480111.749504,65443,65470,4006,28,16,65513,23.05
1368480111.751667,65461,65499,3998,28,12,65499,23.19
1368480111.753835,65457,65502,4070,22,21,65501,23.14
1368480111.755904,65474,65499,4006,32,1,65508,23.19
1368480111.758084,65484,65475,4031,14,25,65484,23.05
1368480111.760166,65469,65493,4048,16,24,65494,23.19
1368480111.762418,65468,65521,4015,16,19,65482,23.14
1368480111.764429,65477,65494,4056,29,15,65501,23.09
1368480111.766550,65445,65482,4023,33,29,65494,23.14
1368480111.768673,65451,65509,4055,26,15,65510,23.19
1368480111.770941,65457,65486,4032,28,14,65497,23.14
1368480111.772916,65478,65486,4022,17,22,65501,23.09
1368480111.775132,65460,65499,4015,33,33,65490,23.05
1368480111.777191,65461,65501,4042,44,7,65504,23.09
1368480111.779314,65454,65518,4022,19,31,65500,23.14
1368480111.781443,65449,65476,4026,20,16,65498,23.19
1368480111.783506,65473,65521,4027,27,32,65511,23.24
1368480111.785692,65439,65505,4027,24,23,65488,23.19
1368480111.787885,65456,65477,4040,21,65535,65508,23.14
1368480111.789952,65472,65493,4071,30,32,65492,23.19
1368480111.792300,65453,65465,4045,32,27,65509,23.05
1368480111.794235,65456,65481,4011,28,22,65495,23.19
1368480111.796361,65469,65495,4020,29,29,65506,23.14
1368480111.798472,65472,65481,4063,31,19,65489,23.09
1368480111.800606,65461,65475,4035,20,18,65488,23.14
1368480111.802726,65490,65475,4040,18,24,65495,23.09
1368480111.804880,65456,65463,4013,28,15,65486,23.14
1368480111.806987,65470,65496,4030,25,19,65506,23.09
1368480111.809156,65487,65493,3948,34,24,65495,23.14
1368480111.811250,65447,65486,4003,13,14,65514,23.09
1368480111.813361,65455,65488,4029,11,22,65494,23.24
1368480111.815514,65465,65486,4049,29,14,65510,23.09
1368480111.817675,65463,65499,4039,23,23,65497,23.14
1368480111.819825,65422,65476,4051,24,7,65509,23.19
1368480111.821811,65467,65501,4055,29,32,65499,23.14
1368480111.823977,65462,65503,4005,28,14,65505,23.09
1368480111.826118,65463,65495,4063,23,34,65508,23.14
1368480111.828201,65452,65466,4055,39,8,65490,23.09
1368480111.830335,65470,65504,4033,27,23,65503,23.05
1368480111.832458,65470,65503,4038,17,12,65494,23.09
1368480111.834588,65469,65482,4008,28,31,65508,23.14
1368480111.836718,65473,65504,4006,32,43,65505,23.09
1368480111.838833,65471,65494,4003,26,16,65511,23.14
1368480111.840993,65465,65474,4021,28,29,65497,23.09
1368480111.843149,65466,65490,4043,13,25,65497,23.14
1368480111.845292,65420,65494,4057,8,42,65517,23.19
1368480111.847518,65464,65493,4021,29,15,65502,23.14
1368480111.849581,65461,65487,4008,28,26,65515,23.19
1368480111.851852,65464,65479,4025,20,25,65495,23.14
1368480111.853825,65447,65467,4035,28,18,65511,23.09
1368480111.855951,65470,65507,4017,28,26,65478,23.14
1368480111.858104,65485,65487,4048,21,27,65518,23.19
1368480111.860282,65444,65481,4014,21,25,65490,23.05
1368480111.862335,65450,65481,4072,30,30,65506,23.00
1368480111.864466,65466,65480,4022,23,6,65484,23.14
1368480111.866592,65456,65478,4050,20,21,65510,23.19
1368480111.868721,65446,65486,4026,30,29,65491,23.05
1368480111.870887,65457,65503,4039,22,13,65496,23.09
1368480111.873013,65453,65486,4020,14,12,65504,23.14
1368480111.875100,65445,65482,3991,28,20,65493,23.00
1368480111.877278,65436,65493,4029,29,0,65509,23.14
1368480111.879365,65466,65478,4076,24,27,65495,23.00
1368480111.881484,65458,65482,4046,33,30,65499,23.24
1368480111.883549,65465,65489,4009,26,31,65496,23.09
1368480111.885682,65438,65459,4006,27,1,65509,23.14
1368480111.887810,65473,65473,4065,17,24,65493,23.19
1368480111.889948,65454,65460,3971,19,28,65497,23.14
1368480111.892073,65450,65472,4004,27,33,65500,23.09
1368480111.894242,65480,65487,4046,23,15,65488,23.14
1368480111.896324,65463,65489,4024,28,6,65508,23.09
1368480111.898440,65461,65492,4031,33,21,65480,23.14
1368480111.900668,65467,65482,4069,13,41,65517,23.00
1368480111.902786,65486,65471,4033,29,19,65483,23.14
1368480111.905816,65448,65474,4025,30,41,65514,23.19
1368480111.907061,65454,65470,4058,21,18,65502,23.14
1368480111.909166,65435,65494,4011,28,26,65502,23.19
1368480111.911342,65444,65496,4032,30,16,65515,23.14
1368480111.913454,65458,65486,4053,16,21,65510,23.09
1368480111.915574,65455,65493,4017,35,20,65508,23.05
1368480111.917720,65467,65494,4028,16,22,65484,23.09
1368480111.919799,65443,65498,3997,22,15,65504,23.14
1368480111.921965,65453,65489,4091,21,19,65499,23.09
1368480111.924078,65476,65488,4002,16,21,65515,23.14
1368480111.926206,65455,65499,4037,22,11,65492,23.09
1368480111.928383,65440,65496,4026,21,18,65501,23.14
1368480111.930463,65456,65502,4007,20,22,65511,23.09
1368480111.932589,65467,65482,4038,16,17,65503,23.14
1368480111.934706,65466,65486,4004,25,28,65494,23.19
1368480111.936886,65446,65468,4025,7,23,65500,23.24
1368480111.938995,65446,65482,4066,21,20,65504,23.09
1368480111.941031,65469,65472,4021,22,23,65485,23.05
1368480111.943165,65460,65479,4044,25,31,65517,23.19
1368480111.945329,65473,65477,4060,17,33,65509,23.24
1368480111.947422,65471,65481,3999,27,24,65513,23.09
1368480111.949544,65461,65484,4062,26,38,65493,23.14
1368480111.951678,65462,65475,4012,22,23,65507,23.09
1368480111.953807,65465,65507,4057,21,26,65482,23.05
1368480111.955950,65470,65499,4056,27,14,65503,23.19
1368480111.958060,65478,65478,3997,19,29,65500,23.05
1368480111.960188,65468,65462,4023,27,21,65491,23.19
1368480111.962354,65479,65468,3989,30,13,65499,23.14
1368480111.964457,65465,65471,4043,20,13,65501,23.19
1368480111.966565,65473,65488,4055,35,31,65513,23.14
1368480111.968716,65463,65486,4036,23,25,65493,23.19
1368480111.970808,65485,65495,4026,18,26,65520,23.24
1368480111.972993,65487,65494,4066,25,28,65504,23.19
1368480111.975095,65469,65504,4002,18,24,65506,23.14
1368480111.977222,65480,65479,4040,21,36,65508,23.09
1368480111.979766,65427,65493,4040,20,35,65487,23.14
1368480111.981362,65439,65487,4046,19,3,65510,23.19
1368480111.983601,65465,65490,4001,24,29,65489,23.14
1368480111.985690,65459,65489,4031,32,24,65497,23.09
1368480111.987854,65454,65484,4030,24,20,65489,23.14
1368480111.990007,65464,65490,4028,23,31,65509,23.09
1368480111.992122,65430,65495,4004,33,28,65490,23.05
1368480111.994239,65446,65490,4031,22,19,65503,23.19
1368480111.996502,65466,65495,4019,21,31,65493,23.14
1368480111.998602,65465,65487,4014,27,65522,65505,23.00
1368480112.000660,65451,65488,4035,33,19,65501,23.14
1368480112.002788,65487,65486,3991,25,20,65507,23.19
1368480112.004912,65492,65492,4027,21,18,65505,23.14
1368480112.007024,65471,65485,4015,21,33,65496,23.19
1368480112.009156,65464,65486,4063,27,37,65501,23.14
1368480112.011282,65481,65475,4012,19,18,65503,23.09
1368480112.013456,65473,65470,4023,16,23,65500,23.24
1368480112.015539,65463,65483,3985,25,5,65492,23.19
1368480112.017737,65473,65482,4042,33,13,65504,23.14
1368480112.019883,65486,65488,4006,27,4,65498,23.19
1368480112.022005,65458,65509,4027,33,15,65502,23.14
1368480112.024134,65461,65473,4024,20,18,65499,23.19
1368480112.026252,65442,65463,4027,18,22,65496,23.24
1368480112.028380,65479,65503,4023,29,23,65506,23.09
1368480112.030558,65470,65483,4021,23,8,65481,23.14
1368480112.032637,65443,65470,4076,32,18,65514,23.19
1368480112.034772,65464,65465,4081,20,28,65498,23.14
1368480112.036821,65450,65471,4024,31,13,65504,23.19
1368480112.038988,65473,65514,4032,17,16,65494,23.14
1368480112.041082,65487,65520,4024,20,29,65502,23.09
1368480112.043215,65460,65511,4055,21,22,65503,23.24
1368480112.045342,65454,65471,4047,27,34,65505,23.09
1368480112.047520,65473,65471,4043,26,17,65498,23.14
1368480112.049599,65459,65486,4044,25,24,65496,23.19
1368480112.051733,65479,65483,4051,15,8,65503,23.14
1368480112.053847,65460,65489,4048,20,16,65475,23.09
1368480112.055983,65449,65486,4024,30,31,65508,23.05
1368480112.058121,65467,65471,4008,31,28,65490,23.09
1368480112.060359,65440,65500,3996,20,21,65509,23.14
1368480112.062456,65445,65489,4066,30,11,65480,23.09
1368480112.064622,65467,65482,4025,26,10,65493,23.14
1368480112.066706,65463,65503,4006,13,35,65484,23.19
1368480112.068847,65445,65479,4028,24,15,65490,23.14
1368480112.070978,65473,65494,4046,28,11,65511,23.09
1368480112.073092,65449,65504,4031,41,24,65473,23.14
1368480112.075221,65439,65492,4052,32,13,65498,23.09
1368480112.077358,65494,65492,4064,22,29,65487,23.14
1368480112.079480,65441,65476,4032,34,27,65502,23.00
1368480112.081659,65457,65462,4020,16,20,65491,23.14
1368480112.083746,65460,65473,4020,33,23,65505,23.19
1368480112.085901,65478,65484,4006,30,30,65495,23.14
1368480112.087989,65476,65504,4044,17,30,65490,23.19
1368480112.090115,65439,65488,4035,19,22,65507,23.05
1368480112.092243,65421,65486,4040,19,21,65493,23.09
1368480112.094900,65454,65505,4030,27,31,65505,23.05
1368480112.096534,65462,65486,4016,15,23,65487,23.09
1368480112.098786,65477,65487,3977,24,22,65526,23.14
1368480112.100798,65465,65494,4059,26,23,65474,23.09
1368480112.102899,65480,65480,4059,19,21,65503,23.05
1368480112.105024,65473,65479,4057,23,14,65500,23.19
1368480112.107169,65471,65489,4021,28,23,65509,23.14
1368480112.109305,65475,65500,4031,28,22,65494,23.19
1368480112.111414,65472,65496,4013,32,65532,65486,23.14
1368480112.113540,65468,65504,4025,18,8,65505,23.19
1368480112.115707,65460,65482,4080,31,30,65496,23.14
1368480112.117867,65450,65517,4051,26,12,65504,23.09
1368480112.119904,65444,65503,4011,16,16,65482,23.14
1368480112.121967,65475,65483,4018,35,16,65507,23.09
1368480112.124123,65435,65479,4056,17,4,65494,23.05
1368480112.126223,65440,65471,4040,28,25,65502,23.09
1368480112.128376,65459,65482,4018,34,32,65501,23.14
1368480112.130483,65466,65483,4014,17,24,65513,23.00
1368480112.132659,65462,65479,4031,31,33,65499,23.14
1368480112.134745,65460,65494,4038,25,27,65499,23.09
1368480112.136895,65470,65479,4033,21,25,65498,23.24
1368480112.139000,65464,65471,4071,25,22,65484,23.19
1368480112.141128,65454,65462,4047,14,40,65497,23.14
1368480112.143261,65443,65501,4012,20,28,65489,23.09
1368480112.145579,65463,65479,4026,25,13,65516,23.05
1368480112.147516,65473,65476,4025,25,17,65498,23.09
1368480112.149695,65452,65466,4032,41,33,65516,23.14
1368480112.151772,65478,65485,3994,31,13,65481,23.19
1368480112.153928,65456,65499,4051,30,12,65505,23.14
1368480112.156050,65476,65517,4042,36,10,65497,23.09
1368480112.158178,65451,65490,4043,13,20,65495,23.05
1368480112.160312,65476,65484,4003,27,27,65508,23.19
1368480112.162433,65471,65468,4015,19,22,65493,23.14
1368480112.164576,65458,65492,4024,23,13,65502,23.09
1368480112.166722,65443,65486,4020,35,33,65503,23.14
1368480112.168790,65464,65497,3983,23,1,65508,23.09
1368480112.170961,65455,65509,4078,24,35,65484,23.14
1368480112.173061,65455,65511,4034,31,10,65518,23.09
1368480112.175182,65503,65492,4041,18,26,65490,23.14
1368480112.177321,65446,65500,3951,26,25,65505,23.09
1368480112.179458,65448,65489,4044,34,19,65502,23.05
1368480112.181596,65452,65505,4047,20,21,65498,23.19
1368480112.183758,65460,65478,4001,20,29,65493,23.14
1368480112.185853,65464,65517,4039,22,5,65496,23.09
1368480112.187928,65461,65482,4022,28,48,65509,23.14
1368480112.190102,65464,65487,4081,44,2,65488,23.19
1368480112.192231,65456,65511,4025,17,17,65510,23.14
1368480112.194362,65457,65490,4041,24,25,65506,23.19
1368480112.196490,65465,65482,4011,42,23,65503,23.14
1368480112.198620,65452,65471,4029,35,14,65493,23.09
1368480112.200803,65441,65475,3990,26,10,65502,23.14
1368480112.202894,65454,65454,4022,13,32,65498,23.09
1368480112.205005,65457,65463,4013,26,1,65494,23.14
1368480112.207130,65464,65505,4024,24,26,65517,23.09
1368480112.209265,65476,65473,4039,24,6,65488,23.14
1368480112.211391,65478,65510,3987,21,4,65503,23.09
1368480112.213528,65466,65465,4035,26,16,65478,23.05
1368480112.215653,65456,65484,4011,22,23,65512,23.09
1368480112.217818,65488,65471,4039,17,14,65488,23.24
1368480112.219932,65452,65495,3978,26,4,65499,23.09
1368480112.222035,65447,65490,4031,35,12,65494,23.05
1368480112.224168,65475,65502,4086,26,23,65492,23.09
1368480112.226294,65458,65484,4012,25,31,65516,23.14
1368480112.228424,65470,65494,4004,17,17,65490,23.09
1368480112.230549,65444,65481,4044,26,9,65495,23.14
1368480112.232680,65468,65466,4023,10,11,65478,23.09
1368480112.234855,65443,65493,4015,24,26,65514,23.14
1368480112.236946,65465,65505,4042,25,25,65486,23.19
1368480112.239067,65462,65487,4061,27,23,65508,23.14
1368480112.241251,65468,65507,4083,34,29,65493,23.19
1368480112.243377,65459,65497,4026,22,33,65500,23.14
1368480112.245504,65454,65495,4066,23,17,65501,23.19
1368480112.247650,65454,65471,4031,31,22,65500,23.14
1368480112.249766,65442,65459,4037,16,18,65499,23.19
1368480112.251917,65453,65484,4001,19,18,65487,23.14
1368480112.253993,65478,65504,4037,14,16,65512,23.19
1368480112.256124,65449,65480,4035,17,30,65480,23.24
1368480112.258257,65462,65490,3994,26,12,65516,23.09
1368480112.260383,65460,65473,4006,18,33,65488,23.14
1368480112.262511,65460,65494,4042,26,9,65514,23.09
1368480112.264638,65453,65489,4023,33,17,65494,23.05
1368480112.266773,65451,65487,4009,26,5,65510,23.00
1368480112.268948,65479,65499,4044,19,11,65503,23.05
1368480112.271030,65467,65490,4018,17,21,65488,23.09
1368480112.273155,65478,65496,4032,18,19,65518,23.14
1368480112.275291,65450,65495,4026,17,11,65506,23.09
1368480112.277388,65450,65493,4062,16,24,65512,23.14
1368480112.279525,65462,65475,4042,28,26,65484,23.09
1368480112.281631,65440,65478,4040,25,29,65508,23.14
1368480112.283751,65468,65481,4000,11,1,65496,23.09
1368480112.285950,65455,65490,4015,29,7,65508,23.14
1368480112.288017,65439,65492,4068,21,14,65494,23.19
1368480112.290132,65437,65504,4035,29,26,65491,23.14
1368480112.292275,65472,65481,3992,28,18,65488,23.09
1368480112.294405,65451,65490,4066,24,18,65515,23.14
1368480112.296534,65458,65490,4030,18,29,65492,23.09
1368480112.298662,65454,65487,4057,25,65533,65485,23.14
1368480112.300822,65443,65500,4033,17,41,65519,23.19
1368480112.303009,65471,65483,4031,35,20,65481,23.14
1368480112.305259,65478,65477,4023,30,17,65512,23.09
1368480112.307281,65457,65479,4041,22,37,65503,23.14
1368480112.309378,65453,65496,4076,21,6,65507,23.19
1368480112.311478,65478,65490,4072,33,13,65505,23.05
1368480112.313648,65471,65482,4055,19,36,65499,23.00
1368480112.315769,65475,65472,4047,22,8,65508,23.24
1368480112.317862,65467,65493,4029,17,34,65493,23.19
1368480112.320051,65479,65494,4036,23,6,65504,23.24
1368480112.322149,65455,65486,4046,17,22,65491,23.09
1368480112.324248,65467,65502,4050,27,19,65509,23.05
1368480112.326375,65479,65459,4009,28,23,65497,23.19
1368480112.328508,65467,65487,4060,30,1,65507,23.05
1368480112.330659,65468,65480,4033,16,35,65502,23.09
1368480112.332797,65471,65485,4029,21,18,65500,23.14
1368480112.334915,65476,65475,4057,28,65535,65504,23.09
1368480112.337084,65465,65509,4042,26,15,65495,23.14
1368480112.339171,65452,65472,4018,32,22,65517,23.19
1368480112.341302,65478,65492,4021,26,26,65483,23.14
1368480112.343411,65465,65491,4015,32,32,65511,23.19
1368480112.345545,65469,65498,4036,13,17,65490,23.14
1368480112.347670,65466,65478,4030,19,8,65503,23.09
1368480112.349792,65459,65489,4043,23,30,65494,23.14
1368480112.351943,65463,65468,4059,21,20,65523,23.09
1368480112.354092,65439,65505,4047,21,35,65493,23.14
1368480112.356185,65465,65504,4066,20,5,65497,23.09
1368480112.358307,65454,65484,4031,28,16,65515,23.05
1368480112.360437,65466,65490,4035,32,22,65501,23.09
1368480112.362566,65484,65479,4037,10,22,65508,23.14
1368480112.364682,65455,65490,4025,26,21,65491,23.09
1368480112.366831,65457,65485,4036,34,24,65516,23.14
1368480112.370928,65471,65482,4051,17,7,65487,23.09
1368480112.371140,65449,65494,4058,14,18,65501,23.05
1368480112.373186,65442,65481,4030,28,28,65498,23.09
1368480112.375300,65458,65497,4021,33,27,65512,23.05
1368480112.377429,65438,65500,4039,22,23,65499,23.09
# mpu9150 IMU data closed at: 14:21:52 2013-05-13
